time,ax,ay,az
0.008440017700195312,0.01,0.28,-0.04,0.28
0.011249065399169922,-0.22,0.2,-0.12,0.32
0.016995906829833984,-0.14,0.23,0.2,0.33
0.018630027770996094,-0.22,0.06,0.17,0.28
0.03744697570800781,-0.16,0.12,0.17,0.26
0.04140806198120117,-0.14,0.0,-0.1,0.17
0.07236576080322266,-0.03,-0.22,-0.34,0.4
0.07318401336669922,0.07,-0.32,-0.4,0.51
0.08198690414428711,0.12,-0.26,-0.22,0.36
0.08266592025756836,0.15,-0.12,-0.01,0.19
0.09900689125061035,0.11,0.0,0.1,0.14
0.1000208854675293,0.01,0.07,0.25,0.25
0.1162099838256836,-0.14,0.11,0.41,0.44
0.1172018051147461,-0.22,0.14,0.48,0.54
0.13330888748168945,-0.23,0.14,0.45,0.52
0.13421392440795898,-0.21,0.04,0.3,0.36
0.17198395729064941,-0.13,-0.08,0.1,0.18
0.17325687408447266,-0.04,-0.14,-0.07,0.16
0.18201398849487305,0.03,-0.14,-0.14,0.2
0.18294382095336914,0.09,-0.12,-0.1,0.18
0.19893503189086914,0.12,-0.07,-0.01,0.13
0.1999359130859375,0.09,-0.06,0.06,0.12
0.22020292282104492,0.05,-0.08,0.05,0.1
0.22477102279663086,-0.01,-0.08,0.01,0.08
0.23462677001953125,-0.07,-0.04,0.03,0.08
0.23842477798461914,-0.08,0.02,0.04,0.09
0.27188992500305176,-0.05,0.04,0.05,0.08
0.27268075942993164,-0.03,0.04,0.01,0.05
0.28197479248046875,0.03,0.01,-0.03,0.04
0.28262996673583984,0.06,-0.04,-0.04,0.08
0.2989358901977539,0.07,-0.07,-0.07,0.12
0.2999598979949951,0.09,-0.07,-0.08,0.13
0.3148660659790039,0.07,-0.07,-0.04,0.1
0.31574583053588867,0.02,-0.04,0.01,0.04
0.3317549228668213,-0.05,-0.03,0.03,0.06
0.33319997787475586,-0.09,-0.01,0.06,0.1
0.3686380386352539,-0.11,0.06,0.08,0.14
0.3699030876159668,-0.11,0.1,0.09,0.17
0.3830559253692627,-0.07,0.09,0.0,0.11
0.3841090202331543,-0.02,0.05,-0.08,0.09
0.39905500411987305,0.01,0.03,-0.12,0.12
0.40004587173461914,0.01,-0.02,-0.08,0.08
0.41637492179870605,0.02,-0.04,-0.01,0.04
0.4178199768066406,0.03,-0.04,0.04,0.06
0.43399477005004883,0.02,-0.03,0.05,0.06
0.4378499984741211,0.0,-0.04,0.01,0.04
0.4749419689178467,-0.02,-0.03,0.0,0.03
0.4757370948791504,-0.06,0.02,0.06,0.08
0.4829840660095215,-0.07,0.06,0.09,0.12
0.48365092277526855,-0.06,0.05,0.04,0.08
0.4988389015197754,-0.01,0.01,-0.06,0.06
0.49982404708862305,0.02,-0.03,-0.14,0.14
0.5150079727172852,0.06,-0.02,-0.13,0.14
0.5158438682556152,0.05,-0.02,-0.09,0.1
0.5311849117279053,0.03,-0.05,-0.03,0.06
0.5321259498596191,0.03,-0.05,-0.02,0.06
0.5647158622741699,0.01,-0.02,-0.05,0.05
0.5660500526428223,0.03,-0.01,-0.08,0.08
0.583096981048584,0.08,-0.02,-0.11,0.13
0.584129810333252,0.08,-0.02,-0.1,0.12
0.6007847785949707,0.06,-0.01,-0.08,0.1
0.6017699241638184,0.06,-0.02,-0.06,0.08
0.6163029670715332,0.06,-0.04,-0.05,0.08
0.6172747611999512,0.04,-0.03,-0.04,0.06
0.634552001953125,0.03,-0.02,-0.04,0.05
0.6386227607727051,0.03,-0.02,-0.05,0.06
0.6670079231262207,0.02,-0.01,-0.01,0.02
0.6681480407714844,0.0,0.03,0.03,0.04
0.6832668781280518,-0.05,0.04,0.11,0.12
0.6839358806610107,-0.1,0.01,0.21,0.23
0.6993317604064941,-0.02,0.02,0.19,0.19
0.7003459930419922,0.07,-0.03,0.1,0.12
0.7158029079437256,0.06,-0.15,0.05,0.16
0.7167758941650391,0.14,-0.15,-0.03,0.2
0.7326807975769043,0.2,-0.11,-0.15,0.27
0.7341039180755615,0.16,-0.32,-0.01,0.35
0.7668399810791016,0.15,-0.35,0.21,0.43
0.7680320739746094,0.14,-0.25,0.27,0.39
0.7834908962249756,0.21,-0.17,0.15,0.3
0.7845368385314941,0.27,-0.14,-0.16,0.34
0.7998390197753906,0.23,-0.17,-0.26,0.38
0.800811767578125,0.2,-0.21,-0.04,0.29
0.8166370391845703,0.18,-0.25,0.13,0.33
0.8180758953094482,0.01,-0.23,0.09,0.24
0.8364858627319336,-0.09,-0.3,0.29,0.42
0.8422660827636719,-0.16,-0.26,0.25,0.39
0.8750438690185547,-0.02,0.0,0.23,0.23
0.8758320808410645,0.04,0.15,0.36,0.39
0.8830339908599854,-0.15,0.02,0.46,0.48
0.8836979866027832,-0.32,-0.09,0.5,0.6
0.8989768028259277,-0.21,-0.09,0.59,0.63
0.899561882019043,-0.11,-0.11,0.4,0.42
0.9152407646179199,-0.06,-0.01,-0.03,0.06
0.9162278175354004,0.14,0.18,-0.43,0.48
0.9317588806152344,0.39,0.17,-0.66,0.78
0.9327340126037598,0.44,-0.07,-0.55,0.7
0.9658899307250977,0.47,-0.32,-0.38,0.68
0.9671330451965332,0.52,-0.35,-0.05,0.62
0.9833369255065918,0.2,-0.38,-0.02,0.42
0.984367847442627,-0.35,-0.5,-0.43,0.74
1.0002529621124268,-0.44,-0.25,-0.64,0.81
1.001244068145752,-0.21,0.14,-0.37,0.44
1.0169110298156738,0.06,0.14,0.26,0.3
1.0181899070739746,-0.05,0.48,0.3,0.56
1.0349960327148438,0.07,0.71,0.44,0.83
1.0392260551452637,0.05,0.49,0.26,0.55
1.066823959350586,0.0,0.14,-0.16,0.21
1.0676429271697998,0.22,-0.15,-0.45,0.52
1.0835018157958984,0.56,-0.43,-0.81,1.07
1.0841679573059082,0.76,-0.65,-0.95,1.37
1.0993690490722656,0.74,-0.69,-1.14,1.52
1.1003539562225342,0.52,-0.58,-1.27,1.48
1.1157939434051514,0.29,-0.32,-1.16,1.23
1.1167628765106201,0.12,0.01,-1.01,1.01
1.132887840270996,0.03,0.27,-0.81,0.85
1.1342997550964355,-0.15,0.36,-0.33,0.51
1.1818838119506836,-0.48,0.46,0.27,0.71
1.1826438903808594,-0.7,0.63,0.64,1.13
1.2035069465637207,-0.66,0.78,0.62,1.19
1.2045331001281738,-0.55,0.73,0.52,1.05
1.2161219120025635,-0.44,0.55,0.37,0.79
1.217108964920044,-0.24,0.3,0.29,0.48
1.2323639392852783,-0.19,0.15,0.26,0.35
1.2333509922027588,-0.35,0.22,0.31,0.51
1.249927043914795,-0.53,0.36,0.31,0.71
1.2511799335479736,-0.67,0.46,0.21,0.83
1.3005638122558594,-0.75,0.53,0.19,0.93
1.3013091087341309,-0.74,0.49,0.13,0.89
1.3203949928283691,-0.65,0.33,0.12,0.73
1.3214330673217773,-0.44,0.16,0.25,0.53
1.3322720527648926,-0.22,0.01,0.38,0.43
1.3332910537719727,-0.11,-0.11,0.4,0.42
1.3494057655334473,0.02,-0.16,0.02,0.16
1.3503680229187012,0.04,-0.21,-0.45,0.49
1.3664798736572266,0.07,-0.18,-0.55,0.58
1.367891788482666,0.13,-0.12,-0.27,0.32
1.418591022491455,0.12,-0.09,-0.01,0.15
1.4192979335784912,0.09,-0.05,0.15,0.18
1.436964988708496,0.09,-0.02,0.16,0.18
1.4376299381256104,0.1,-0.02,-0.02,0.1
1.449388027191162,0.1,-0.06,-0.14,0.18
1.4501979351043701,0.13,-0.03,0.0,0.13
1.4658129215240479,0.15,0.07,0.19,0.25
1.4667909145355225,0.08,0.07,0.27,0.29
1.4833450317382812,-0.03,0.06,0.31,0.31
1.4847850799560547,-0.13,0.15,0.23,0.3
1.519676923751831,-0.18,0.21,0.1,0.29
1.5209050178527832,-0.22,0.2,0.0,0.29
1.5336017608642578,-0.29,0.13,-0.17,0.36
1.534632921218872,-0.23,0.07,-0.32,0.4
1.5501079559326172,-0.08,0.05,-0.3,0.31
1.5511109828948975,0.01,0.02,-0.1,0.1
1.5670969486236572,0.02,0.01,0.09,0.09
1.5685310363769531,0.07,0.02,0.14,0.15
1.5851168632507324,0.09,0.01,0.12,0.15
1.5888769626617432,0.04,-0.03,0.1,0.11
1.6242480278015137,-0.05,-0.05,0.05,0.08
1.6250488758087158,-0.09,-0.03,-0.03,0.09
1.6337389945983887,-0.08,0.03,-0.15,0.17
1.6344060897827148,-0.05,0.09,-0.21,0.23
1.6496829986572266,-0.03,0.08,-0.12,0.14
1.6507549285888672,0.01,0.0,-0.01,0.01
1.6649739742279053,0.04,-0.03,0.06,0.07
1.6654839515686035,0.09,0.02,0.12,0.15
1.681123971939087,0.1,0.08,0.11,0.16
1.6816959381103516,0.06,0.04,0.01,0.07
1.7077760696411133,0.04,-0.04,-0.07,0.09
1.7086138725280762,0.02,-0.09,-0.1,0.13
1.7165679931640625,0.02,-0.1,-0.09,0.13
1.7170209884643555,-0.01,-0.05,0.05,0.07
1.735637903213501,-0.07,-0.01,0.14,0.15
1.7402458190917969,-0.12,0.0,0.08,0.14
1.7519049644470215,-0.05,0.07,0.0,0.08
1.756098985671997,0.01,0.13,-0.1,0.16
1.7695488929748535,0.02,0.13,-0.13,0.18
1.7747318744659424,-0.01,0.06,-0.08,0.1
1.8073310852050781,-0.02,-0.02,-0.06,0.06
1.8081450462341309,-0.01,-0.06,-0.05,0.07
1.8171579837799072,0.02,-0.04,-0.03,0.05
1.8178448677062988,0.05,0.02,-0.04,0.06
1.8336148262023926,0.06,0.04,-0.07,0.1
1.8345627784729004,0.05,0.02,-0.12,0.13
1.8496050834655762,0.02,0.0,-0.08,0.08
1.8505778312683105,0.02,0.02,-0.02,0.03
1.8668079376220703,0.01,0.04,-0.04,0.05
1.868241786956787,0.04,0.03,-0.08,0.09
1.914534091949463,0.07,0.0,-0.06,0.09
1.9155640602111816,0.09,-0.02,-0.04,0.1
1.937272071838379,0.03,-0.04,0.07,0.08
1.9383878707885742,-0.04,-0.02,0.03,0.05
1.9497270584106445,-0.08,0.06,-0.04,0.1
1.9507360458374023,-0.1,0.1,0.0,0.14
1.9661140441894531,-0.1,0.06,0.04,0.12
1.9669208526611328,-0.07,0.01,0.08,0.1
1.9858050346374512,-0.02,0.0,0.09,0.09
1.990036964416504,0.01,0.0,0.03,0.03
2.022568941116333,0.02,0.03,-0.09,0.09
2.0233941078186035,-0.01,0.06,-0.11,0.12
2.033874988555908,-0.04,0.04,-0.07,0.09
2.034533977508545,-0.07,0.03,-0.03,0.08
2.0498499870300293,-0.07,0.02,-0.06,0.09
2.0506489276885986,0.01,0.02,-0.06,0.06
2.0655617713928223,0.05,-0.01,-0.07,0.08
2.0665619373321533,0.07,-0.05,-0.03,0.09
2.08251690864563,0.08,-0.04,0.04,0.09
2.083338975906372,0.07,-0.03,0.06,0.09
2.1221227645874023,0.08,0.0,-0.02,0.08
2.123368978500366,0.07,0.01,-0.16,0.17
2.1344900131225586,0.04,0.03,-0.18,0.18
2.1355109214782715,-0.01,0.04,-0.2,0.2
2.1504578590393066,0.0,0.02,-0.21,0.21
2.1514477729797363,0.03,0.03,-0.09,0.09
2.167404890060425,0.01,0.04,0.04,0.05
2.168834924697876,0.02,0.05,0.03,0.06
2.185396909713745,0.04,0.04,-0.01,0.05
2.1895649433135986,0.04,0.01,-0.05,0.06
2.222972869873047,0.03,-0.04,-0.03,0.05
2.223814010620117,0.02,-0.08,-0.01,0.08
2.233977794647217,-0.01,-0.07,-0.07,0.09
2.2346410751342773,0.0,-0.02,-0.07,0.07
2.250231981277466,0.01,-0.03,-0.06,0.06
2.2512099742889404,0.02,-0.06,-0.06,0.08
2.265467882156372,0.02,-0.06,-0.03,0.06
2.2661619186401367,0.0,-0.01,0.13,0.13
2.2826647758483887,-0.02,0.02,0.24,0.24
2.283662796020508,-0.03,0.06,0.16,0.17
2.321497917175293,-0.03,0.06,0.08,0.1
2.3224029541015625,-0.02,0.05,0.04,0.06
2.334108829498291,-0.02,0.04,-0.03,0.05
2.3349428176879883,-0.02,-0.02,-0.06,0.06
2.3496298789978027,-0.01,-0.05,-0.05,0.07
2.3506407737731934,0.0,-0.08,-0.05,0.09
2.366940975189209,-0.01,-0.08,-0.04,0.09
2.367663860321045,-0.04,-0.05,0.04,0.07
2.3832578659057617,-0.06,-0.02,0.09,0.11
2.3846819400787354,-0.06,0.0,0.12,0.13
2.4362940788269043,-0.02,0.01,0.08,0.08
2.437084913253784,0.0,0.0,-0.02,0.02
2.4539809226989746,0.01,-0.03,-0.07,0.07
2.4550271034240723,0.02,-0.07,-0.06,0.09
2.466695785522461,0.03,-0.08,-0.03,0.09
2.4675209522247314,0.03,-0.05,0.05,0.07
2.4828269481658936,0.03,-0.01,0.09,0.09
2.483618974685669,0.03,0.01,0.01,0.03
2.50032377243042,0.1,0.03,-0.07,0.12
2.501772880554199,0.13,0.0,-0.05,0.13
2.552799940109253,0.06,-0.05,0.1,0.12
2.5535619258880615,-0.03,-0.01,0.31,0.31
2.5705690383911133,0.01,0.08,0.27,0.28
2.5712027549743652,0.0,0.04,0.09,0.09
2.582918882369995,0.0,-0.03,-0.08,0.08
2.583725929260254,0.06,-0.05,-0.21,0.22
2.5997769832611084,-0.04,-0.04,-0.22,0.22
2.6006009578704834,-0.11,0.01,-0.23,0.25
2.617021083831787,-0.09,0.03,-0.18,0.2
2.618483066558838,-0.01,-0.02,-0.09,0.09
2.6732709407806396,0.01,-0.09,0.01,0.09
2.673888921737671,-0.04,-0.08,0.1,0.13
2.687376022338867,-0.06,0.03,0.06,0.09
2.6883788108825684,-0.06,0.15,-0.01,0.16
2.699680805206299,-0.04,0.15,-0.07,0.17
2.7005558013916016,-0.03,0.05,-0.13,0.14
2.7165727615356445,-0.07,-0.08,-0.19,0.21
2.7175588607788086,-0.11,-0.17,-0.17,0.26
2.733933925628662,-0.09,-0.16,-0.03,0.18
2.7353577613830566,-0.06,-0.05,0.05,0.09
2.7874298095703125,-0.02,0.0,0.09,0.09
2.788007974624634,0.06,0.03,0.06,0.09
2.8052709102630615,0.1,0.0,0.07,0.12
2.806272029876709,0.06,-0.02,0.09,0.11
2.816682815551758,0.02,0.02,0.04,0.04
2.817676067352295,-0.01,0.03,-0.02,0.03
2.833261013031006,-0.04,0.01,-0.05,0.06
2.8342509269714355,0.02,0.01,-0.01,0.02
2.84950590133667,0.09,0.03,0.04,0.1
2.8509109020233154,0.2,0.04,0.03,0.2
2.8875138759613037,0.32,0.03,-0.04,0.32
2.8883328437805176,0.38,-0.03,-0.14,0.4
2.9010300636291504,0.38,-0.11,-0.16,0.42
2.90187406539917,0.56,-0.1,0.01,0.56
2.9171080589294434,0.99,0.0,0.02,0.99
2.9181039333343506,1.33,-0.05,-0.06,1.33
2.9343128204345703,1.48,-0.29,0.07,1.5
2.9358129501342773,1.31,-0.51,0.29,1.43
2.9534339904785156,1.06,-0.51,0.28,1.2
2.9573678970336914,0.88,-0.36,0.2,0.97
2.9931399822235107,0.88,-0.2,0.13,0.91
2.9938130378723145,1.2,-0.15,-0.1,1.21
3.000727891921997,1.83,-0.16,-0.15,1.84
3.0013880729675293,2.75,-0.11,0.01,2.75
3.0167269706726074,3.63,-0.09,0.35,3.64
3.0173630714416504,4.2,-0.12,0.79,4.27
3.0332040786743164,4.34,-0.24,0.96,4.45
3.034176826477051,3.83,-0.45,0.82,3.94
3.0488228797912598,2.71,-0.39,0.51,2.78
3.0498290061950684,1.18,-0.1,0.29,1.21
3.083655834197998,-0.39,0.16,0.08,0.42
3.084484100341797,-2.0,0.37,-0.37,2.06
3.1010560989379883,-3.79,0.57,-0.96,3.95
3.101706027984619,-5.62,0.64,-1.46,5.84
3.1200289726257324,-7.51,0.6,-1.72,7.72
3.121016025543213,-9.28,0.65,-1.42,9.41
3.1338047981262207,-10.57,0.87,-0.64,10.62
3.134799003601074,-11.17,1.05,0.5,11.23
3.1507768630981445,-10.8,1.28,1.49,10.97
3.152219772338867,-9.93,1.62,1.41,10.15
3.1823158264160156,-8.72,1.77,1.03,8.95
3.18356990814209,-6.72,1.93,0.49,7.0
3.201725959777832,-3.94,1.59,-0.36,4.26
3.203105926513672,-0.02,1.08,-0.48,1.18
3.218240976333618,4.93,0.42,0.61,4.98
3.219289779663086,10.42,-1.29,1.9,10.67
3.2348527908325195,15.54,-3.44,2.7,16.14
3.2363457679748535,19.2,-5.39,3.01,20.16
3.2532777786254883,20.11,-5.92,3.18,21.2
3.2580580711364746,18.73,-5.22,3.5,19.75
3.2896718978881836,16.48,-5.0,2.76,17.44
3.2905287742614746,13.6,-5.24,0.94,14.6
3.30110502243042,10.53,-5.11,-0.37,11.71
3.3018059730529785,7.88,-4.96,-1.25,9.39
3.3177449703216553,3.66,-4.19,-2.05,5.92
3.3185458183288574,-3.2,-1.78,-1.52,3.96
3.3348639011383057,-10.73,1.51,-0.73,10.86
3.335922956466675,-17.28,3.57,-0.02,17.64
3.352038860321045,-21.55,4.36,0.28,21.98
3.3530588150024414,-23.11,5.17,0.71,23.69
3.3863210678100586,-22.62,5.02,1.46,23.21
3.3876428604125977,-21.22,3.62,1.84,21.6
3.4013118743896484,-19.58,2.39,1.89,19.81
3.4023499488830566,-17.35,1.62,1.07,17.45
3.418344020843506,-14.06,0.97,-0.71,14.11
3.4193978309631348,-8.49,0.22,-2.51,8.85
3.4359750747680664,-0.1,0.16,-3.73,3.73
3.437480926513672,10.8,0.01,-3.85,11.46
3.4542698860168457,22.11,-2.53,-3.76,22.56
3.4591307640075684,28.8,-6.05,-3.26,29.6
3.491313934326172,28.68,-6.69,0.01,29.44
3.492201805114746,26.54,-5.77,3.99,27.45
3.500342845916748,24.1,-5.56,5.39,25.31
3.5010080337524414,20.64,-6.43,4.66,22.11
3.517481803894043,16.53,-6.8,2.94,18.11
3.5184860229492188,13.38,-5.8,0.3,14.58
3.5336859226226807,10.43,-5.47,-2.56,12.05
3.534745931625366,3.91,-4.52,-4.21,7.31
3.55090594291687,-6.86,-1.83,-4.38,8.34
3.55194091796875,-19.08,1.9,-2.85,19.38
3.5818328857421875,-29.52,4.1,0.58,29.8
3.583110809326172,-35.35,3.8,3.71,35.74
3.6027519702911377,-35.92,3.65,4.49,36.38
3.603778839111328,-33.91,3.08,3.49,34.22
3.61783504486084,-31.78,1.43,1.96,31.87
3.618846893310547,-29.2,-0.06,0.24,29.2
3.6347239017486572,-24.73,-0.84,-1.89,24.81
3.636190891265869,-17.61,-1.57,-3.61,18.04
3.6587138175964355,-6.7,-3.03,-3.7,8.23
3.6640889644622803,7.73,-3.54,-3.57,9.22
3.688394069671631,22.15,-2.16,-3.1,22.46
3.6892759799957275,30.78,-4.64,-0.96,31.14
3.7014198303222656,31.78,-6.95,2.83,32.65
3.7020950317382812,30.31,-5.19,5.6,31.25
3.719883918762207,28.88,-4.89,5.32,29.77
3.7328667640686035,27.51,-6.04,3.9,28.43
3.733750820159912,25.14,-8.0,1.24,26.41
3.750411033630371,21.94,-8.06,-1.0,23.39
3.7510838508605957,18.24,-5.57,-1.02,19.09
3.7671759128570557,11.25,-3.27,-1.13,11.76
3.780747890472412,1.08,-0.73,-1.84,2.25
3.7834179401397705,-9.6,2.34,-1.79,10.04
3.8006439208984375,-19.27,4.13,-0.51,19.71
3.8016679286956787,-26.06,4.2,2.11,26.48
3.8187389373779297,-28.57,3.54,4.14,29.08
3.819730758666992,-27.93,2.57,4.14,28.35
3.83420991897583,-25.9,1.48,3.29,26.15
3.8351869583129883,-23.36,0.51,1.75,23.43
3.8511548042297363,-19.47,0.26,-0.49,19.47
3.8526298999786377,-13.06,0.03,-2.88,13.37
3.885835886001587,-4.71,-0.81,-4.63,6.65
3.887096881866455,3.44,-1.39,-5.06,6.27
3.901895046234131,9.51,-1.46,-3.93,10.39
3.9029009342193604,12.5,-1.71,-1.67,12.72
3.9181249141693115,12.55,-1.98,0.54,12.71
3.9191107749938965,11.33,-1.73,1.84,11.6
3.9350390434265137,10.03,-1.53,2.12,10.36
3.936516761779785,8.92,-1.98,1.51,9.26
3.953965902328491,7.77,-2.33,1.08,8.18
3.959171772003174,6.54,-2.34,0.82,6.99
3.988503932952881,5.28,-2.2,0.54,5.74
3.9893550872802734,3.95,-1.8,0.07,4.34
4.001812934875488,2.71,-1.25,-0.36,3.0
4.002468109130859,1.33,-0.53,-0.69,1.58
4.017538070678711,-0.23,0.34,-0.52,0.66
4.01862907409668,-1.73,1.03,-0.16,2.01
4.033117771148682,-2.92,1.51,-0.02,3.28
4.03413200378418,-3.35,1.49,0.0,3.66
4.050376892089844,-2.97,1.16,0.03,3.18
4.051878929138184,-2.39,0.8,0.34,2.54
4.086946964263916,-2.11,0.64,0.66,2.3
4.088214874267578,-2.08,0.54,0.69,2.25
4.102295875549316,-2.07,0.49,0.58,2.2
4.103308916091919,-1.84,0.48,0.21,1.91
4.118161916732788,-1.22,0.21,-0.15,1.24
4.119164943695068,-0.52,-0.08,-0.23,0.57
4.134696960449219,0.05,-0.27,-0.21,0.34
4.136146068572998,0.51,-0.44,-0.17,0.69
4.154124975204468,0.86,-0.59,-0.1,1.04
4.158817768096924,0.93,-0.68,0.11,1.15
4.186305999755859,0.73,-0.56,0.41,1.0
4.187132835388184,0.41,-0.35,0.64,0.83
4.202139854431152,0.18,-0.17,0.64,0.68
4.202722072601318,-0.05,0.01,0.54,0.54
4.217545986175537,-0.23,0.08,0.31,0.39
4.218548774719238,-0.32,0.08,0.11,0.34
4.233608961105347,-0.35,0.1,-0.03,0.36
4.234606981277466,-0.35,0.16,-0.08,0.39
4.250153064727783,-0.35,0.17,-0.04,0.39
4.250792980194092,-0.36,0.21,0.12,0.43
4.287146091461182,-0.35,0.31,0.2,0.5
4.288414001464844,-0.32,0.33,0.18,0.49
4.302846908569336,-0.29,0.32,0.09,0.44
4.3038330078125,-0.2,0.3,0.02,0.36
4.320024013519287,-0.13,0.28,0.03,0.31
4.32152795791626,-0.13,0.26,0.08,0.3
4.3373448848724365,-0.12,0.22,0.16,0.29
4.341904878616333,-0.1,0.2,0.11,0.24
4.352880954742432,0.01,0.15,0.14,0.2
4.35718297958374,0.2,0.09,0.2,0.29
4.388816833496094,0.38,-0.04,0.23,0.44
4.389638900756836,0.43,-0.08,0.25,0.5
4.402310848236084,0.37,-0.04,0.27,0.45
4.403316020965576,0.23,-0.02,0.31,0.38
4.4177680015563965,0.12,0.02,0.39,0.4
4.41874098777771,0.09,0.03,0.43,0.44
4.433945894241333,0.14,-0.04,0.37,0.39
4.434938907623291,0.25,-0.13,0.26,0.38
4.451541900634766,0.28,-0.2,0.08,0.35
4.452970027923584,0.21,-0.16,-0.11,0.28
4.486358880996704,0.07,-0.12,-0.25,0.28
4.487444877624512,-0.05,-0.09,-0.21,0.23
4.502415895462036,-0.1,-0.07,-0.22,0.25
4.503436088562012,-0.14,-0.06,-0.24,0.28
4.517754077911377,-0.12,0.0,-0.17,0.2
4.51873779296875,-0.11,0.06,-0.09,0.15
4.534501075744629,-0.1,0.08,-0.07,0.14
4.535964012145996,-0.1,0.02,-0.09,0.13
4.553866863250732,-0.07,-0.06,-0.21,0.22
4.559524059295654,0.0,-0.06,-0.29,0.29
4.585668087005615,0.06,-0.06,-0.31,0.32
4.586420059204102,0.06,-0.05,-0.3,0.31
4.602642059326172,0.0,0.07,-0.25,0.25
4.603292942047119,-0.06,0.14,-0.25,0.29
4.617970943450928,-0.09,0.09,-0.27,0.29
4.61886191368103,-0.07,0.08,-0.23,0.25
4.633680820465088,-0.05,0.09,-0.11,0.15
4.6346940994262695,-0.02,0.09,-0.04,0.1
4.651569843292236,0.02,0.06,-0.04,0.07
4.652863025665283,0.03,0.02,-0.01,0.03
4.698913097381592,-0.01,0.02,0.02,0.03
4.699716091156006,-0.06,0.04,0.02,0.07
4.72181510925293,-0.07,0.05,-0.06,0.1
4.722839832305908,-0.04,0.03,-0.09,0.1
4.734157085418701,-0.05,0.03,-0.01,0.05
4.735060930252075,-0.09,0.03,0.08,0.12
4.752496957778931,-0.05,0.02,0.11,0.12
4.753767967224121,-0.02,-0.07,0.2,0.21
4.770811080932617,-0.02,-0.11,0.17,0.2
4.774529933929443,-0.1,-0.09,0.1,0.16
4.8069469928741455,-0.16,-0.07,0.11,0.2
4.807727813720703,-0.18,-0.07,0.09,0.21
4.8184709548950195,-0.16,-0.12,0.08,0.21
4.819028854370117,-0.11,-0.11,0.04,0.16
4.83606481552124,-0.08,-0.05,-0.05,0.1
4.837041854858398,-0.08,-0.02,-0.09,0.12
4.850549936294556,-0.09,-0.04,-0.13,0.16
4.851562023162842,-0.09,-0.03,-0.12,0.15
4.867201805114746,-0.08,-0.02,-0.04,0.09
4.868188858032227,-0.02,-0.02,-0.05,0.05
4.903109073638916,0.02,-0.02,-0.07,0.07
4.904272079467773,0.04,-0.02,-0.09,0.1
4.91931676864624,0.02,0.02,-0.1,0.1
4.92017388343811,-0.03,0.07,-0.09,0.11
4.93455696105957,-0.06,0.06,-0.08,0.11
4.935399055480957,-0.05,0.04,-0.15,0.16
4.952178955078125,0.0,0.04,-0.17,0.17
4.9534687995910645,0.04,0.0,-0.07,0.08
4.9720869064331055,0.07,-0.05,0.02,0.08
4.9771199226379395,0.05,-0.06,0.08,0.11
5.007338047027588,0.01,-0.08,0.05,0.09
5.008172988891602,-0.07,-0.05,-0.01,0.08
5.018953800201416,-0.12,0.01,-0.05,0.13
5.019607067108154,-0.15,0.03,-0.02,0.15
5.034607887268066,-0.13,0.0,0.02,0.13
5.035583019256592,-0.11,0.01,0.09,0.14
5.050614833831787,-0.1,0.02,0.1,0.14
5.051493883132935,-0.05,-0.03,0.05,0.07
5.067501068115234,-0.03,-0.12,0.03,0.12
5.068482875823975,-0.05,-0.13,0.07,0.15
5.105799913406372,-0.07,-0.1,0.12,0.17
5.10703182220459,-0.09,-0.09,0.14,0.18
5.118863105773926,-0.11,-0.08,0.14,0.19
5.1197428703308105,-0.13,-0.05,0.05,0.14
5.135562896728516,-0.12,-0.06,-0.03,0.13
5.136560916900635,-0.11,-0.06,-0.11,0.16
5.152409076690674,-0.09,-0.05,-0.12,0.15
5.153899908065796,-0.1,-0.06,-0.09,0.14
5.171126842498779,-0.09,-0.03,-0.09,0.13
5.1755900382995605,-0.1,0.0,-0.07,0.12
5.203395843505859,-0.13,0.01,-0.01,0.13
5.204200983047485,-0.15,0.02,-0.02,0.15
5.219446897506714,-0.1,0.0,-0.08,0.12
5.2200939655303955,-0.13,-0.03,-0.1,0.16
5.234620094299316,-0.21,0.01,-0.11,0.23
5.235615968704224,-0.19,0.01,-0.07,0.2
5.251327991485596,-0.06,-0.02,-0.01,0.06
5.25230598449707,0.04,-0.01,-0.02,0.04
5.2674407958984375,0.09,-0.04,-0.01,0.09
5.268397808074951,0.09,-0.11,-0.02,0.14
5.305593967437744,0.08,-0.13,-0.06,0.16
5.306878089904785,0.07,-0.11,-0.05,0.13
5.32000207901001,0.07,-0.06,-0.04,0.1
5.320831775665283,0.08,-0.05,-0.07,0.11
5.336713790893555,0.09,-0.05,-0.02,0.1
5.338050842285156,0.06,-0.05,0.07,0.1
5.354043006896973,0.03,-0.01,0.12,0.12
5.358567953109741,0.03,0.01,0.08,0.08
5.369589805603027,0.05,-0.01,0.01,0.05
5.373668909072876,0.01,0.0,-0.02,0.02
5.408828973770142,-0.04,0.03,-0.03,0.05
5.409602880477905,-0.06,0.07,-0.02,0.09
5.418972969055176,-0.03,0.06,0.0,0.06
5.419627904891968,0.0,0.04,0.05,0.06
5.434569835662842,0.0,0.01,0.04,0.04
5.43536901473999,0.0,0.0,0.02,0.02
5.45074987411499,0.0,-0.03,0.02,0.03
5.451458930969238,0.0,-0.06,0.04,0.07
5.468080043792725,-0.02,-0.06,0.04,0.07
5.46870493888855,-0.05,-0.03,0.09,0.1
5.488674879074097,-0.07,-0.04,0.08,0.11
5.489565849304199,-0.04,-0.04,0.07,0.09
5.502201080322266,-0.03,-0.07,0.04,0.08
5.5032429695129395,-0.02,-0.06,0.03,0.06
5.518222808837891,-0.04,-0.08,0.0,0.08
5.519222974777222,-0.06,-0.09,-0.01,0.1
5.53479790687561,-0.08,-0.08,-0.01,0.11
5.535656929016113,-0.06,-0.07,-0.01,0.09
5.550944805145264,0.0,-0.08,0.0,0.08
5.5523600578308105,0.04,-0.08,-0.06,0.1
5.594267845153809,0.03,-0.09,-0.08,0.12
5.595038890838623,0.02,-0.07,-0.11,0.13
5.602309942245483,0.02,-0.06,-0.13,0.14
5.603170871734619,-0.01,-0.05,-0.03,0.05
5.618262767791748,-0.07,-0.04,0.02,0.08
5.6192779541015625,-0.09,0.0,0.0,0.09
5.634490966796875,-0.07,0.01,-0.02,0.07
5.6354899406433105,-0.05,-0.02,-0.04,0.06
5.651167869567871,-0.04,-0.05,-0.07,0.09
5.652596950531006,-0.09,-0.01,-0.05,0.1
5.699029922485352,-0.14,0.03,-0.01,0.14
5.699776887893677,-0.11,0.03,0.0,0.11
5.722292900085449,-0.05,-0.02,-0.02,0.05
5.723298072814941,0.02,-0.05,-0.06,0.08
5.734507083892822,0.04,-0.07,-0.06,0.1
5.735382080078125,0.04,-0.07,-0.02,0.08
5.751120090484619,0.02,-0.08,0.04,0.09
5.752120018005371,-0.01,-0.06,0.07,0.09
5.7533369064331055,-0.03,-0.01,0.1,0.1
5.769385814666748,-0.03,-0.01,0.07,0.07
5.79252290725708,-0.02,0.01,0.06,0.06
5.794126033782959,-0.06,0.02,0.06,0.08
5.802167892456055,-0.07,0.0,0.06,0.09
5.803070068359375,-0.04,-0.02,0.06,0.07
5.8195648193359375,-0.01,-0.03,0.05,0.05
5.820558071136475,-0.03,-0.04,0.05,0.07
5.83552098274231,-0.04,-0.03,0.03,0.05
5.836966037750244,-0.05,-0.04,0.07,0.09
5.8541460037231445,-0.05,-0.04,0.07,0.09
5.855035781860352,-0.03,-0.03,0.05,0.06
5.890561103820801,0.0,-0.04,0.07,0.08
5.891313076019287,0.05,-0.08,0.0,0.09
5.9025797843933105,0.07,-0.08,0.03,0.11
5.903164863586426,0.05,-0.08,0.0,0.09
5.918656826019287,-0.01,-0.02,-0.01,0.02
5.919671058654785,-0.05,0.01,-0.09,0.1
5.934346914291382,-0.03,-0.03,-0.2,0.2
5.935320854187012,0.01,-0.06,-0.18,0.19
5.950585842132568,0.03,-0.04,-0.11,0.12
5.951575756072998,0.04,-0.01,-0.06,0.07
5.989648818969727,0.03,-0.04,-0.08,0.09
5.990894794464111,-0.01,-0.04,-0.09,0.09
6.002929925918579,-0.05,-0.01,-0.14,0.14
6.003971099853516,-0.03,-0.01,-0.15,0.15
6.019590854644775,-0.01,-0.05,-0.14,0.14
6.020551919937134,0.0,-0.09,-0.16,0.18
6.035853862762451,0.02,-0.11,-0.06,0.12
6.037307977676392,0.02,-0.08,-0.01,0.08
6.055275917053223,-0.02,-0.05,0.03,0.06
6.059889793395996,-0.05,-0.02,0.0,0.05
6.091437816619873,-0.05,-0.01,-0.11,0.12
6.092108964920044,-0.05,-0.02,-0.14,0.15
6.102766036987305,-0.06,-0.06,-0.13,0.15
6.103355884552002,-0.08,-0.03,-0.04,0.09
6.118715763092041,-0.09,-0.01,0.02,0.09
6.119550943374634,-0.08,-0.02,0.06,0.1
6.135119915008545,-0.05,-0.05,0.01,0.07
6.136116027832031,0.0,-0.05,0.03,0.05
6.15096378326416,0.02,-0.06,0.02,0.06
6.1519317626953125,0.0,-0.07,0.04,0.08
6.188406944274902,-0.02,-0.02,0.1,0.1
6.189611911773682,-0.03,0.0,0.11,0.11
6.202889919281006,-0.01,0.02,0.12,0.12
6.20388388633728,0.0,0.04,0.06,0.07
6.2190728187561035,-0.02,0.03,0.0,0.03
6.220057010650635,-0.07,0.07,0.02,0.1
6.23604679107666,-0.07,0.09,0.05,0.12
6.237229824066162,-0.01,0.06,0.06,0.08
6.253998756408691,0.05,0.01,0.03,0.05
6.25815486907959,0.09,-0.02,-0.01,0.09
6.289529800415039,0.09,-0.02,0.04,0.1
6.290111064910889,0.08,-0.01,0.09,0.12
6.302651882171631,0.04,0.02,0.1,0.1
6.303303956985474,-0.02,0.04,0.07,0.08
6.31846284866333,-0.01,0.04,0.02,0.04
6.319333076477051,0.02,0.06,0.05,0.08
6.335508823394775,0.02,0.03,0.02,0.04
6.336306095123291,0.05,0.01,0.05,0.07
6.352287769317627,0.07,-0.01,0.07,0.09
6.3537139892578125,0.07,0.0,0.02,0.07
6.39014196395874,0.07,0.0,-0.02,0.07
6.390873908996582,0.08,-0.05,-0.05,0.1
6.403182029724121,0.07,-0.08,-0.02,0.1
6.404109001159668,0.05,-0.05,0.02,0.07
6.420917987823486,0.05,-0.04,0.05,0.08
6.422131061553955,0.03,-0.02,0.08,0.08
6.4387359619140625,0.03,-0.03,0.02,0.04
6.443516969680786,0.01,-0.01,-0.1,0.1
6.4540019035339355,0.0,0.01,-0.12,0.12
6.458033084869385,0.0,-0.01,-0.06,0.06
6.493306875228882,0.03,-0.03,-0.01,0.04
6.494074821472168,0.07,-0.04,0.0,0.08
6.50282096862793,0.1,-0.04,-0.08,0.13
6.503407955169678,0.07,-0.05,-0.15,0.17
6.518599033355713,0.03,-0.04,-0.18,0.18
6.51959490776062,0.02,-0.04,-0.16,0.16
6.534751892089844,0.03,-0.05,-0.08,0.09
6.535731792449951,0.03,-0.05,0.03,0.06
6.5511369705200195,0.01,0.0,0.05,0.05
6.552119970321655,-0.01,0.06,0.02,0.06
6.590974807739258,-0.02,0.06,0.03,0.06
6.591893911361694,-0.02,0.06,0.01,0.06
6.6024088859558105,-0.03,0.05,-0.02,0.06
6.60329794883728,0.01,0.02,0.0,0.02
6.619297027587891,0.03,0.0,0.07,0.07
6.620347023010254,0.03,0.01,0.13,0.13
6.635603904724121,0.04,-0.03,0.13,0.13
6.6366589069366455,0.05,-0.1,0.08,0.13
6.654385089874268,0.06,-0.07,0.04,0.1
6.659225940704346,0.03,-0.02,0.01,0.03
6.689245939254761,-0.03,-0.01,-0.01,0.03
6.6899659633636475,-0.04,-0.01,-0.02,0.04
6.702965974807739,-0.03,0.0,-0.02,0.03
6.703547954559326,-0.03,-0.05,-0.02,0.06
6.704341888427734,-0.05,-0.06,0.03,0.08
6.718844890594482,-0.06,-0.02,0.08,0.1
6.719883918762207,-0.09,0.0,0.04,0.09
6.734807014465332,-0.12,0.0,0.03,0.12
6.735697984695435,-0.11,-0.01,0.0,0.11
6.751662969589233,-0.08,-0.01,-0.05,0.09
6.773037910461426,-0.07,0.01,-0.09,0.11
6.773919105529785,-0.05,0.0,-0.12,0.13
6.78580904006958,-0.02,-0.07,-0.08,0.1
6.786855936050415,0.0,-0.09,-0.08,0.12
6.803781032562256,0.02,-0.06,-0.08,0.1
6.80465292930603,0.0,-0.06,-0.06,0.08
6.819461822509766,-0.03,-0.07,-0.04,0.08
6.820713996887207,-0.05,-0.08,-0.05,0.1
6.835714817047119,-0.08,-0.06,-0.06,0.11
6.837134838104248,-0.09,-0.01,-0.04,0.09
6.886716842651367,-0.07,0.03,-0.01,0.07
6.887420892715454,-0.04,0.02,-0.02,0.04
6.9065470695495605,-0.01,0.03,-0.06,0.06
6.907561779022217,-0.02,0.02,-0.1,0.1
6.918713092803955,-0.04,-0.01,-0.12,0.12
6.919720888137817,-0.08,-0.04,-0.07,0.11
6.9364728927612305,-0.1,0.0,-0.03,0.1
6.937891960144043,-0.09,0.01,0.03,0.09
6.954854965209961,-0.04,-0.02,0.07,0.08
6.959046840667725,0.01,-0.06,0.07,0.09
6.991782903671265,0.02,-0.06,0.09,0.11
6.992505073547363,0.01,-0.04,0.07,0.08
7.003164768218994,-0.06,-0.04,0.0,0.07
7.003742933273315,-0.1,0.0,-0.04,0.1
7.0188307762146,-0.09,0.03,-0.09,0.13
7.01981782913208,-0.07,0.04,-0.11,0.13
7.034480094909668,-0.09,-0.01,-0.04,0.09
7.035468101501465,-0.08,-0.01,0.02,0.08
7.051620960235596,-0.02,-0.01,0.03,0.03
7.052488803863525,0.01,-0.03,0.02,0.03
7.090376853942871,0.0,0.0,-0.03,0.03
7.0914177894592285,-0.01,0.03,-0.04,0.05
7.10331392288208,-0.04,-0.01,-0.03,0.05
7.104158878326416,-0.06,-0.01,-0.03,0.06
7.119272947311401,-0.05,0.0,0.01,0.05
7.120255947113037,-0.02,-0.03,0.06,0.06
7.136229991912842,0.02,-0.08,0.04,0.09
7.137763023376465,0.05,-0.07,0.05,0.09
7.155439853668213,0.09,-0.07,0.03,0.11
7.160682916641235,0.07,-0.05,0.02,0.08
7.191683769226074,0.01,-0.02,-0.03,0.03
7.192493915557861,-0.05,0.02,-0.07,0.08
7.203190803527832,-0.06,0.02,-0.1,0.11
7.203776836395264,-0.03,-0.01,-0.11,0.11
7.218843936920166,0.03,-0.02,-0.1,0.1
7.21980094909668,0.09,0.02,-0.08,0.12
7.235161781311035,0.13,-0.02,-0.04,0.13
7.236140966415405,0.14,-0.06,-0.05,0.16
7.251698970794678,0.09,-0.1,-0.03,0.13
7.25266695022583,0.02,-0.07,0.0,0.07
7.28997802734375,-0.03,-0.01,0.0,0.03
7.290733814239502,-0.07,-0.01,0.03,0.07
7.303197860717773,-0.08,-0.05,-0.01,0.09
7.304215908050537,-0.04,-0.05,0.02,0.06
7.318887948989868,-0.01,-0.02,0.01,0.02
7.319866895675659,-0.03,-0.02,0.01,0.03
7.335275888442993,-0.07,0.0,0.05,0.08
7.336259841918945,-0.09,0.02,0.02,0.09
7.355260848999023,-0.1,0.04,0.05,0.11
7.359512805938721,-0.08,0.0,0.09,0.12
7.391917943954468,-0.06,0.0,0.09,0.1
7.39257287979126,-0.05,-0.01,0.08,0.09
7.403119087219238,-0.05,-0.02,0.03,0.06
7.403658866882324,-0.03,-0.04,-0.01,0.05
7.419167995452881,-0.01,-0.04,-0.03,0.05
7.41989278793335,0.01,-0.03,0.02,0.03
7.435149908065796,0.04,-0.04,0.05,0.07
7.436150074005127,0.06,-0.03,0.04,0.07
7.452024936676025,0.07,-0.01,0.03,0.07
7.452830791473389,0.08,-0.01,-0.01,0.08
7.489120006561279,0.09,-0.01,-0.02,0.09
7.490255832672119,0.06,-0.05,-0.06,0.09
7.503726959228516,0.03,-0.03,-0.06,0.07
7.504634857177734,0.03,0.01,-0.06,0.06
7.50567102432251,0.04,0.02,-0.05,0.06
7.519439935684204,0.05,0.01,0.01,0.05
7.520689964294434,0.04,-0.01,0.0,0.04
7.536845922470093,0.01,-0.01,-0.02,0.02
7.538207054138184,-0.01,-0.01,-0.04,0.04
7.555094957351685,0.02,-0.05,-0.05,0.07
7.58888578414917,0.04,-0.04,-0.03,0.06
7.589734077453613,0.02,0.0,-0.02,0.02
7.603893756866455,0.02,-0.04,0.01,0.04
7.604449987411499,0.02,-0.09,0.04,0.1
7.619287967681885,-0.01,-0.07,0.01,0.07
7.620282888412476,-0.02,-0.03,0.03,0.04
7.635128974914551,0.0,-0.03,0.03,0.04
7.635718822479248,-0.01,-0.03,0.05,0.05
7.652713775634766,-0.01,-0.01,0.03,0.03
7.653886795043945,-0.03,0.02,0.01,0.03
7.678646087646484,-0.11,0.01,-0.02,0.11
7.679670810699463,-0.13,0.0,-0.03,0.13
7.68618106842041,-0.11,0.01,0.02,0.11
7.686870098114014,-0.05,0.02,0.06,0.08
7.702653884887695,-0.05,0.02,0.08,0.09
7.703341007232666,-0.05,0.03,0.06,0.08
7.718930959701538,-0.05,0.05,-0.02,0.07
7.719732761383057,-0.07,0.05,0.01,0.08
7.736303806304932,-0.04,0.03,-0.1,0.11
7.737741947174072,-0.01,-0.01,-0.19,0.19
7.788609027862549,0.06,-0.03,-0.11,0.12
7.78935694694519,0.06,-0.06,-0.04,0.09
7.806729793548584,0.07,-0.07,0.0,0.09
7.807574987411499,0.08,-0.06,0.0,0.1
7.818871974945068,0.05,-0.02,-0.06,0.08
7.819872856140137,0.01,0.03,-0.13,0.13
7.8351099491119385,0.03,0.04,-0.17,0.17
7.836061954498291,0.06,-0.01,-0.19,0.19
7.8531599044799805,0.08,-0.04,-0.14,0.16
7.854558944702148,0.09,-0.06,-0.04,0.11
7.903076887130737,0.14,-0.08,0.04,0.16
7.9038190841674805,0.22,-0.1,0.04,0.24
7.922761917114258,0.26,-0.07,0.05,0.27
7.92385196685791,0.23,0.0,-0.06,0.23
7.935857772827148,0.15,0.08,-0.2,0.26
7.936844825744629,0.02,0.12,-0.29,0.31
7.952304840087891,-0.16,0.06,-0.37,0.4
7.953273773193359,-0.45,0.03,-0.39,0.59
7.969607830047607,-0.77,0.12,-0.36,0.85
7.971031904220581,-0.97,0.2,-0.29,1.03
8.019754886627197,-1.1,0.25,-0.15,1.13
8.02049207687378,-1.1,0.21,-0.09,1.12
8.039281845092773,-1.11,0.14,-0.03,1.11
8.040279865264893,-1.24,0.14,-0.11,1.25
8.05194902420044,-1.48,0.19,-0.25,1.51
8.05292797088623,-1.7,0.22,-0.27,1.73
8.06839895248413,-1.81,0.21,-0.19,1.83
8.06938886642456,-1.92,0.22,-0.08,1.93
8.086688041687012,-2.21,0.34,0.13,2.23
8.088129043579102,-2.84,0.43,0.19,2.87
8.124414920806885,-3.59,0.53,0.35,3.64
8.125732898712158,-4.16,0.76,0.45,4.25
8.136497020721436,-4.32,0.85,0.36,4.41
8.13752293586731,-4.29,0.7,-0.17,4.35
8.153085947036743,-4.27,0.56,-0.44,4.32
8.154062986373901,-4.36,0.61,-0.5,4.43
8.170130968093872,-4.35,0.7,-0.66,4.45
8.17157793045044,-3.99,0.51,-0.55,4.05
8.189341068267822,-2.75,0.4,-0.06,2.77
8.194708824157715,-0.41,0.98,0.43,1.14
8.225132942199707,3.25,2.08,1.1,4.01
8.225960969924927,7.75,2.37,1.89,8.32
8.236129760742188,11.81,-0.02,2.5,12.07
8.236788988113403,14.21,-2.72,3.53,14.89
8.25248384475708,15.16,-2.55,3.96,15.87
8.253471851348877,15.78,-2.5,4.21,16.52
8.268561840057373,15.96,-4.08,4.24,17.01
8.269556045532227,15.38,-5.66,3.93,16.85
8.28537893295288,14.14,-6.96,2.69,15.98
8.286372900009155,12.28,-7.65,1.37,14.53
8.32183289527893,10.03,-7.04,-0.08,12.25
8.322726964950562,6.63,-5.82,-1.58,8.96
8.337178945541382,1.59,-4.35,-2.76,5.39
8.338246822357178,-5.05,-1.61,-3.19,6.18
8.35352087020874,-12.37,2.16,-2.31,12.76
8.354526042938232,-18.59,4.48,-0.86,19.14
8.36965799331665,-21.98,4.54,0.27,22.44
8.371124982833862,-22.21,4.38,0.99,22.65
8.389282941818237,-20.73,4.11,0.73,21.14
8.394036769866943,-19.3,3.43,-0.11,19.6
8.431296825408936,-18.4,3.07,-0.76,18.66
8.432106971740723,-16.76,2.62,-1.58,17.03
8.436059951782227,-12.93,1.71,-2.53,13.28
8.43675184249878,-6.6,0.51,-3.53,7.5
8.453420877456665,1.47,-0.41,-4.03,4.3
8.454099893569946,9.97,-1.23,-3.43,10.61
8.468975067138672,16.39,-2.57,-2.14,16.72
8.47000789642334,19.85,-3.89,-0.15,20.22
8.48508095741272,21.82,-4.33,2.05,22.33
8.486057758331299,22.52,-4.56,3.63,23.26
8.520709991455078,21.5,-5.07,3.73,22.4
8.521563053131104,19.08,-6.16,2.23,20.17
8.537975788116455,16.19,-6.47,-0.17,17.43
8.539053916931152,13.3,-6.09,-2.2,14.79
8.552941799163818,8.69,-5.93,-3.74,11.16
8.553955078125,1.23,-4.53,-3.95,6.13
8.570404052734375,-7.78,-2.17,-2.48,8.44
8.571386814117432,-16.37,0.48,-0.52,16.38
8.586668968200684,-23.39,2.6,1.34,23.57
8.588119983673096,-27.58,3.46,2.68,27.92
8.639487981796265,-28.36,3.69,2.7,28.72
8.640284061431885,-26.75,3.55,1.97,27.05
8.657195091247559,-23.85,3.26,1.43,24.11
8.65829086303711,-20.22,2.78,0.92,20.43
8.669826984405518,-15.96,1.69,0.25,16.05
8.670839786529541,-10.27,0.37,-0.32,10.28
8.68596887588501,-1.99,-0.58,-0.56,2.14
8.687045097351074,8.42,-0.04,-0.18,8.42
8.702548027038574,17.5,0.15,0.59,17.51
8.704049110412598,22.12,-3.05,2.5,22.46
8.741843938827515,23.58,-4.6,4.58,24.45
8.743155002593994,23.67,-3.34,5.15,24.45
8.753652095794678,22.13,-3.15,4.79,22.86
8.754684925079346,19.2,-3.26,4.09,19.89
8.769924879074097,15.62,-4.93,2.49,16.56
8.771012783050537,12.45,-6.16,0.41,13.89
8.786359786987305,10.12,-4.83,-1.23,11.28
8.787374019622803,6.23,-4.32,-2.54,7.99
8.803011894226074,0.02,-3.52,-4.11,5.41
8.804473876953125,-7.16,-1.33,-4.48,8.55
8.857820987701416,-14.12,0.98,-3.33,14.54
8.85862684249878,-20.1,2.49,-1.6,20.31
8.87349796295166,-24.04,3.24,0.32,24.25
8.874177932739258,-25.23,3.55,1.53,25.52
8.886125087738037,-24.29,3.48,1.76,24.6
8.887138843536377,-21.91,2.95,1.04,22.13
8.903451919555664,-18.39,1.88,-0.21,18.48
8.904459953308105,-13.57,0.68,-1.53,13.67
8.920961856842041,-6.7,-0.32,-2.44,7.13
8.922384977340698,2.79,-0.88,-2.25,3.69
8.971044063568115,13.74,-0.46,-0.71,13.76
8.971827030181885,20.92,-1.44,1.38,21.01
8.990696907043457,22.75,-3.4,3.57,23.27
8.99173879623413,22.94,-3.01,4.58,23.58
9.003111839294434,21.54,-2.34,4.53,22.13
9.004079818725586,18.51,-2.35,4.06,19.09
9.020907878875732,14.74,-3.44,2.86,15.4
9.021885871887207,9.72,-4.72,0.61,10.82
9.037129878997803,5.09,-3.87,-1.27,6.51
9.038553953170776,1.38,-2.27,-2.59,3.71
9.091440916061401,-1.96,-1.69,-2.81,3.82
9.092200756072998,-4.53,-0.97,-1.24,4.79
9.1072359085083,-6.57,0.02,0.85,6.62
9.10788106918335,-8.31,0.71,2.15,8.61
9.120072841644287,-9.39,1.17,2.05,9.68
9.121044874191284,-9.68,1.43,1.03,9.83
9.135860919952393,-9.27,1.72,-0.03,9.42
9.13684892654419,-8.48,1.95,-0.76,8.73
9.153546810150146,-7.46,1.68,-0.5,7.66
9.154526948928833,-6.1,1.19,0.03,6.21
9.1978440284729,-4.4,0.75,0.46,4.48
9.198659896850586,-2.81,0.16,0.36,2.83
9.203590869903564,-1.37,-0.48,-0.15,1.45
9.204304933547974,-0.08,-1.15,-0.67,1.33
9.220037937164307,0.69,-1.58,-1.32,2.17
9.221070766448975,0.87,-1.59,-1.39,2.28
9.235967874526978,0.86,-1.23,-1.39,2.04
9.236845970153809,0.85,-0.74,-1.72,2.05
9.253153800964355,0.79,-0.37,-1.71,1.91
9.254185914993286,0.82,-0.3,-1.19,1.47
9.294182777404785,0.99,-0.4,-0.37,1.13
9.295036792755127,1.14,-0.38,0.19,1.21
9.304056882858276,1.16,-0.35,0.91,1.51
9.30510687828064,1.34,-0.42,1.28,1.9
9.32026195526123,1.41,-0.38,1.01,1.77
9.321254968643188,1.22,-0.24,0.89,1.52
9.336051940917969,0.73,-0.08,0.9,1.16
9.337033987045288,0.14,0.1,0.78,0.79
9.354049921035767,-0.26,0.49,0.5,0.74
9.355576038360596,-0.25,1.02,0.26,1.08
9.407826900482178,0.09,1.26,0.02,1.26
9.40873384475708,0.35,0.99,-0.04,1.05
9.424315929412842,0.5,0.55,0.08,0.74
9.425603866577148,0.58,0.19,0.21,0.64
9.43660593032837,0.63,-0.01,0.4,0.74
9.437601089477539,0.59,-0.05,0.48,0.76
9.454210758209229,0.43,0.06,0.3,0.52
9.45546007156372,0.24,0.27,-0.02,0.36
